Folder: Zochas/RDE_data (part 2)

File: 02262020_MnO2_RDE_50mVs_900rpm_ExtendedBounds_IncreasedFlow_C04.mpt
EC-Lab ASCII FILE
Nb header lines : 56

Cyclic Voltammetry

Run on channel : 4 (SN 35517)
User : CESL
CE vs. WE compliance from -10 V to 10 V
Electrode connection : standard
Ewe ctrl range : min = -2.50 V, max = 2.50 V
Safety Limits :
	Do not start on E overload
Acquisition started on : 02/26/2020 14:14:01
Technique started on : 02/26/2020 14:14:01
Saved on :
	File : 02262020_MnO2_RDE_50mVs_900rpm_ExtendedBounds_IncreasedFlow_C04.mpr
	Directory : C:\Users\CESL\Documents\EC-Lab\Data\Undergrad\Katelyn\EChem\
	Host : 169.254.217.189
Device : VSP (SN 1724172417241724)
Address : USB
EC-Lab for windows v11.16 (software)
Internet server v11.16 (firmware)
Command interpretor v11.16 (firmware)
Electrode material : Au/Pd
Initial state :
Electrolyte : NaCl (0.2M)
Comments : Fe(CN)63-/Fe(CN)64- 5.10-3 M
Reference electrode : SCE Saturated Calomel Electrode (0.241 V)
Electrode surface area : 0.001 cm²
Characteristic mass : 0.001 g
Equivalent Weight : 0.000 g/eq.
Density : 0.000 g/cm3
Cycle Definition : Charge/Discharge alternance
Ei (V)              -1.000
vs.                 Ref
dE/dt               50.000
dE/dt unit          mV/s
E1 (V)              1.200
vs.                 Ref
Step percent        50
N                   10
E range min (V)     -2.500
E range max (V)     2.500
I Range             Auto
I Range min         Unset
I Range max         Unset
I Range init        Unset
Bandwidth           5
E2 (V)              -2.000
vs.                 Ref
nc cycles           3
Reverse Scan        1
Ef (V)              -1.000
vs.                 Ref

mode	ox/red	error	control changes	counter inc.	time/s	control/V	Ewe/V	<I>/mA	cycle number	(Q-Qo)/C	P/W
2	1	0	0	0	0.000000000000000E+000	-0.99698	-0.997344	-0.286574	1	0.0000000E+000	0.000285813
2	1	0	1	0	3.7124	-0.811353	-0.811768	-0.0555336	1	-0.000316601	4.50804e-05
2	1	0	1	0	7.466	-0.623674	-0.624107	-0.0198103	1	-0.000451439	1.23638e-05
2	1	0	1	0	11.1876	-0.437595	-0.438077	-0.00732239	1	-0.000495082	3.20777e-06
2	1	0	1	0	14.9412	-0.249917	-0.250287	0.00311485	1	-0.000502813	-7.79606e-07
2	1	0	1	0	18.6628	-0.0638385	-0.0642553	0.00548847	1	-0.00048525	-3.52663e-07
2	1	0	1	0	22.3844	0.12224	0.12186	0.00604296	1	-0.000463477	7.36394e-07
2	1	0	0	0	26.1058	0.308318	0.308042	0.00678102	1	-0.000439707	2.08884e-06
2	1	0	0	0	29.8274	0.494396	0.494036	0.00778855	1	-0.000412566	3.84783e-06
2	1	0	0	0	33.549	0.680474	0.680183	0.00988113	1	-0.000380377	6.72097e-06
2	1	0	0	0	37.3026	0.868153	0.867769	0.0143138	1	-0.000335609	1.24211e-05
2	1	0	0	0	41.0242	1.05423	1.05395	0.0214006	1	-0.000270054	2.25552e-05
2	0	0	0	0	44.6922	1.16238	1.16212	0.0194815	1	-0.000177968	2.26399e-05
2	0	0	1	0	48.4137	0.976295	0.975993	0.00583291	1	-0.000138362	5.69287e-06
2	0	0	1	0	52.1652	0.788719	0.788382	0.00209637	1	-0.000124609	1.65274e-06
2	0	0	1	0	55.8868	0.602641	0.60227	0.00012084	1	-0.000120805	7.27783e-08
2	0	0	1	0	59.6084	0.416563	0.416192	-0.00145013	1	-0.000123392	-6.03534e-07
2	0	0	1	0	63.33	0.230485	0.230102	-0.00303521	1	-0.000131773	-6.98407e-07
2	0	0	1	0	67.0516	0.044407	0.0440258	-0.00455239	1	-0.000146002	-2.00423e-07
2	0	0	0	0	70.773	-0.141671	-0.142089	-0.00622839	1	-0.00016586	8.84988e-07
2	0	0	0	0	74.5266	-0.32935	-0.329811	-0.0121802	1	-0.000196854	4.01717e-06
2	0	0	0	0	78.2482	-0.515428	-0.515867	-0.0318158	1	-0.000274236	1.64127e-05
2	0	0	0	0	81.9698	-0.701506	-0.701939	-0.0629295	1	-0.000449429	4.41727e-05
2	0	0	0	0	85.6914	-0.887585	-0.887989	-0.0901808	1	-0.000740096	8.00795e-05
2	0	0	0	0	89.445	-1.07526	-1.07569	-0.103918	1	-0.00110717	0.000111783
2	0	0	1	0	93.1665	-1.26135	-1.26178	-0.111671	1	-0.00150955	0.000140904
2	0	0	1	0	96.888	-1.44742	-1.44778	-0.12011	1	-0.00193969	0.000173892
2	0	0	1	0	100.61	-1.6335	-1.63388	-0.140022	1	-0.00241799	0.000228779
2	0	0	1	0	104.331	-1.81958	-1.81995	-0.194131	1	-0.00302822	0.000353308
2	1	0	0	1	108.031	-1.99545	-1.99583	-0.268846	1	-0.00389557	0.00053657
2	1	0	1	1	111.753	-1.80937	-1.80978	-0.171045	1	-0.00467382	0.000309553
2	1	0	1	1	115.474	-1.62329	-1.62368	-0.128995	1	-0.00522613	0.000209446
2	1	0	1	1	119.196	-1.43722	-1.43761	-0.101379	1	-0.00565113	0.000145744
2	1	0	1	1	122.918	-1.25114	-1.25157	-0.0867501	1	-0.00599913	0.000108574
2	1	0	1	1	126.639	-1.06506	-1.06553	-0.0774556	1	-0.0063036	8.2531e-05
2	1	0	1	1	130.335	-0.880282	-0.880704	-0.056859	2	-0.00655868	5.00759e-05
2	1	0	0	1	134.088	-0.692603	-0.693075	-0.0208896	2	-0.00670325	1.4478e-05
2	1	0	0	1	137.842	-0.504924	-0.505321	-0.00370902	2	-0.0067422	1.87425e-06
2	1	0	0	1	141.563	-0.318846	-0.319221	0.0033247	2	-0.00674632	-1.06131e-06
2	1	0	0	1	145.285	-0.132767	-0.133158	0.00713845	2	-0.00672352	-9.50546e-07
2	1	0	0	1	149.007	0.0533107	0.052962	0.00711849	2	-0.00669687	3.77009e-07
2	1	0	0	1	152.728	0.239389	0.239029	0.00756328	2	-0.00666981	1.80785e-06
2	1	0	1	1	156.45	0.425467	0.425145	0.00843224	2	-0.00663995	3.58492e-06
2	1	0	1	1	160.171	0.611545	0.611269	0.0097165	2	-0.00660652	5.9394e-06
2	1	0	1	1	163.925	0.799224	0.798873	0.0131907	2	-0.00656409	1.05377e-05
2	1	0	1	1	167.646	0.985302	0.984961	0.0191191	2	-0.00650472	1.88316e-05
2	1	0	1	1	171.368	1.17138	1.17103	0.0287184	2	-0.00641693	3.36302e-05
2	0	0	1	1	175.034	1.04533	1.04504	0.00919211	2	-0.00635	9.60616e-06
2	0	0	0	1	178.787	0.857648	0.857311	0.00364004	2	-0.00632774	3.12064e-06
2	0	0	0	1	182.509	0.67157	0.671225	0.00117552	2	-0.00631914	7.89035e-07
2	0	0	0	1	186.231	0.485492	0.485147	-0.000597989	2	-0.00631819	-2.90112e-07
2	0	0	0	1	189.952	0.299414	0.299017	-0.00216388	2	-0.00632339	-6.47037e-07
2	0	0	0	1	193.674	0.113336	0.11298	-0.00371583	2	-0.00633453	-4.19814e-07
2	0	0	0	1	197.395	-0.0727422	-0.0731851	-0.00516972	2	-0.00635098	3.78346e-07
2	0	0	1	1	201.117	-0.25882	-0.259262	-0.00801533	2	-0.00637419	2.07807e-06
2	0	0	1	1	204.87	-0.446499	-0.446983	-0.0218591	2	-0.00642607	9.77064e-06
2	0	0	1	1	208.592	-0.632577	-0.632984	-0.0498634	2	-0.00655621	3.15627e-05
2	0	0	1	1	212.314	-0.818656	-0.819045	-0.0817808	2	-0.00680358	6.69821e-05
2	0	0	1	1	216.035	-1.00473	-1.00515	-0.0992098	2	-0.00714456	9.97206e-05
2	0	0	1	1	219.789	-1.19241	-1.19282	-0.108583	2	-0.00753584	0.00012952
2	0	0	0	1	223.51	-1.37849	-1.37887	-0.115667	2	-0.00795303	0.00015949
2	0	0	0	1	227.232	-1.56457	-1.56496	-0.129556	2	-0.00840552	0.000202751
2	0	0	0	1	230.953	-1.75065	-1.75105	-0.168667	2	-0.00894829	0.000295345
2	0	0	0	1	234.675	-1.93673	-1.93707	-0.243331	2	-0.00970609	0.00047135
2	1	0	1	0	238.373	-1.8784	-1.87881	-0.193685	2	-0.0105838	0.000363897
2	1	0	0	0	242.095	-1.69232	-1.69277	-0.14246	2	-0.0111975	0.000241153
2	1	0	0	0	245.816	-1.50624	-1.50661	-0.110255	2	-0.0116637	0.000166112
2	1	0	0	0	249.538	-1.32017	-1.32058	-0.0918014	2	-0.0120346	0.000121231
2	1	0	0	0	253.259	-1.13409	-1.13451	-0.0808249	2	-0.0123533	9.16967e-05
2	1	0	0	0	256.955	-0.94931	-0.949725	-0.067418	3	-0.012632	6.40286e-05
2	1	0	1	0	260.708	-0.761634	-0.762089	-0.0334277	3	-0.0128259	2.54749e-05
2	1	0	1	0	264.43	-0.575553	-0.575981	-0.00758862	3	-0.0128942	4.3709e-06
2	1	0	1	0	268.184	-0.387875	-0.388291	-0.000730239	3	-0.0129078	2.83546e-07
2	1	0	1	0	271.905	-0.201796	-0.202217	0.00665556	3	-0.0128934	-1.34586e-06
2	1	0	1	0	275.627	-0.0157182	-0.0160886	0.00698911	3	-0.0128675	-1.12445e-07
2	1	0	1	0	279.348	0.17036	0.170001	0.00714336	3	-0.0128414	1.21438e-06
2	1	0	0	0	283.07	0.356438	0.35609	0.00800577	3	-0.0128134	2.85077e-06
[...]
2	0	0	0	0	327.737	-0.189791	-0.190301	-0.00620089	3	-0.0125273	1.18003e-06
2	0	0	0	0	331.491	-0.37747	-0.377875	-0.0147467	3	-0.0125624	5.57243e-06
2	0	0	0	0	335.212	-0.563548	-0.564024	-0.0374845	3	-0.0126544	2.11422e-05
2	0	0	0	0	338.934	-0.749627	-0.75007	-0.0706688	3	-0.0128545	5.30065e-05
2	0	0	0	0	342.655	-0.935705	-0.936118	-0.0937963	3	-0.0131663	8.78045e-05
2	0	0	0	0	346.409	-1.12338	-1.12381	-0.105502	3	-0.0135425	0.000118564
2	0	0	1	0	350.13	-1.30946	-1.30986	-0.11259	3	-0.0139488	0.000147477
2	0	0	1	0	353.852	-1.49554	-1.49593	-0.122344	3	-0.0143842	0.000183018
2	0	0	1	0	357.574	-1.68162	-1.68202	-0.148764	3	-0.0148807	0.000250223
2	0	0	1	0	361.295	-1.8677	-1.86804	-0.211922	3	-0.0155417	0.000395879
2	1	0	0	1	364.993	-1.94743	-1.94781	-0.227547	3	-0.0164421	0.000443218
2	1	0	0	1	368.715	-1.76135	-1.76178	-0.157886	3	-0.017139	0.00027816
2	1	0	1	1	372.436	-1.57527	-1.57568	-0.12075	3	-0.0176533	0.000190264
2	1	0	1	1	376.158	-1.3892	-1.38959	-0.0971594	3	-0.0180539	0.000135012
2	1	0	1	1	379.88	-1.20312	-1.20355	-0.0836298	3	-0.0183893	0.000100653
2	1	0	1	1	383.601	-1.01704	-1.01745	-0.074376	3	-0.0186851	7.56742e-05
2	1	0	1	1	387.297	-0.832261	-0.832762	-0.0480316	4	-0.018918	3.99989e-05
2	1	0	0	1	391.05	-0.644582	-0.645045	-0.0141999	4	-0.0190292	9.15957e-06
2	1	0	0	1	394.804	-0.456904	-0.45732	-0.00287668	4	-0.0190544	1.31556e-06
2	1	0	0	1	398.525	-0.270825	-0.271237	0.00519748	4	-0.0190512	-1.40975e-06
2	1	0	0	1	402.247	-0.0847472	-0.0850958	0.00701004	4	-0.0190266	-5.96525e-07
2	1	0	0	1	405.969	0.101331	0.100988	0.00694783	4	-0.0190007	7.01644e-07
2	1	0	0	1	409.69	0.287409	0.287089	0.00754573	4	-0.0189738	2.1663e-06
2	1	0	1	1	413.412	0.473487	0.473149	0.00847738	4	-0.018944	4.01106e-06
2	1	0	1	1	417.133	0.659565	0.659263	0.0101344	4	-0.0189099	6.68126e-06
2	1	0	1	1	420.887	0.847244	0.846914	0.0142047	4	-0.0188648	1.20302e-05
2	1	0	1	1	424.608	1.03332	1.03301	0.0209139	4	-0.0188004	2.16043e-05
2	0	0	1	1	428.274	1.18338	1.18314	0.0244123	4	-0.0187071	2.88831e-05
2	0	0	1	1	431.996	0.997307	0.997046	0.00699226	4	-0.0186593	6.9716e-06
2	0	0	0	1	435.749	0.809626	0.809301	0.0028114	4	-0.0186422	2.27526e-06
2	0	0	0	1	439.471	0.62355	0.623196	0.000673566	4	-0.018636	4.19763e-07
2	0	0	0	1	443.193	0.437472	0.437091	-0.00096507	4	-0.0186367	-4.21824e-07
2	0	0	0	1	446.914	0.251394	0.251019	-0.00252564	4	-0.0186433	-6.33981e-07
2	0	0	0	1	450.636	0.0653158	0.0649066	-0.00398229	4	-0.0186555	-2.58477e-07
2	0	0	0	1	454.357	-0.120762	-0.121199	-0.00539296	4	-0.0186729	6.53621e-07
2	0	0	1	1	458.079	-0.306841	-0.307308	-0.00970153	4	-0.0186984	2.98136e-06
2	0	0	1	1	461.832	-0.494519	-0.494946	-0.02624	4	-0.0187619	1.29874e-05
2	0	0	1	1	465.554	-0.680598	-0.681045	-0.0574761	4	-0.0189151	3.91438e-05
2	0	0	1	1	469.276	-0.866676	-0.867117	-0.0872641	4	-0.0191897	7.56682e-05
2	0	0	1	1	472.997	-1.05275	-1.05314	-0.101687	4	-0.0195446	0.00010709
2	0	0	1	1	476.751	-1.24043	-1.2408	-0.110014	4	-0.019943	0.000136505
2	0	0	0	1	480.472	-1.42651	-1.42693	-0.117557	4	-0.0203658	0.000167745
2	0	0	0	1	484.194	-1.61259	-1.61298	-0.135786	4	-0.0208314	0.000219021
2	0	0	0	1	487.915	-1.79867	-1.79908	-0.184935	4	-0.0214148	0.000332713
2	0	0	0	1	491.637	-1.98475	-1.98511	-0.26505	4	-0.0222431	0.000526152
2	1	0	1	0	495.335	-1.83038	-1.83079	-0.175886	4	-0.0230466	0.00032201
2	1	0	0	0	499.057	-1.6443	-1.64475	-0.133319	4	-0.0236145	0.000219275
2	1	0	0	0	502.778	-1.45822	-1.45863	-0.104351	4	-0.0240518	0.00015221
2	1	0	0	0	506.5	-1.27215	-1.27258	-0.08832	4	-0.0244073	0.000112395
2	1	0	0	0	510.221	-1.08607	-1.08653	-0.0788742	4	-0.0247161	8.56995e-05
2	1	0	0	0	511.942	-0.999982	-1.00038	-0.0728173	4	-0.0248469	7.2845e-05

File: 02262020_MnO2_RDE_50mVs_1600rpm_ExtendedBounds_IncreasedFlow_C04.mpt
EC-Lab ASCII FILE
Nb header lines : 56

Cyclic Voltammetry

Run on channel : 4 (SN 35517)
User : CESL
CE vs. WE compliance from -10 V to 10 V
Electrode connection : standard
Ewe ctrl range : min = -2.50 V, max = 2.50 V
Safety Limits :
	Do not start on E overload
Acquisition started on : 02/26/2020 14:04:45
Technique started on : 02/26/2020 14:04:45
Saved on :
	File : 02262020_MnO2_RDE_50mVs_1600rpm_ExtendedBounds_IncreasedFlow_C04.mpr
	Directory : C:\Users\CESL\Documents\EC-Lab\Data\Undergrad\Katelyn\EChem\
	Host : 169.254.217.189
Device : VSP (SN 1724172417241724)
Address : USB
EC-Lab for windows v11.16 (software)
Internet server v11.16 (firmware)
Command interpretor v11.16 (firmware)
Electrode material : Au/Pd
Initial state :
Electrolyte : NaCl (0.2M)
Comments : Fe(CN)63-/Fe(CN)64- 5.10-3 M
Reference electrode : SCE Saturated Calomel Electrode (0.241 V)
Electrode surface area : 0.001 cm²
Characteristic mass : 0.001 g
Equivalent Weight : 0.000 g/eq.
Density : 0.000 g/cm3
Cycle Definition : Charge/Discharge alternance
Ei (V)              -1.000
vs.                 Ref
dE/dt               50.000
dE/dt unit          mV/s
E1 (V)              1.200
vs.                 Ref
Step percent        50
N                   10
E range min (V)     -2.500
E range max (V)     2.500
I Range             Auto
I Range min         Unset
I Range max         Unset
I Range init        Unset
Bandwidth           5
E2 (V)              -2.000
vs.                 Ref
nc cycles           3
Reverse Scan        1
Ef (V)              -1.000
vs.                 Ref

mode	ox/red	error	control changes	counter inc.	time/s	control/V	Ewe/V	<I>/mA	cycle number	(Q-Qo)/C	P/W
2	1	0	0	0	0.000000000000000E+000	-0.99698	-0.997306	-0.317085	1	0.0000000E+000	0.000316231
2	1	0	1	0	3.7124	-0.811353	-0.811783	-0.0669693	1	-0.000378737	5.43645e-05
2	1	0	1	0	7.466	-0.623674	-0.624139	-0.0234716	1	-0.000538718	1.46495e-05
2	1	0	1	0	11.1876	-0.437595	-0.438082	-0.00884213	1	-0.000590875	3.87358e-06
2	1	0	1	0	14.9412	-0.249917	-0.250314	0.00339677	1	-0.000600656	-8.5026e-07
2	1	0	1	0	18.6628	-0.0638385	-0.0642076	0.00627648	1	-0.000581071	-4.02998e-07
2	1	0	1	0	22.3844	0.12224	0.121879	0.00690033	1	-0.000556315	8.41005e-07
2	1	0	0	0	26.1058	0.308318	0.307973	0.00762605	1	-0.0005295	2.34862e-06
2	1	0	0	0	29.8274	0.494396	0.494081	0.00863126	1	-0.000499331	4.26454e-06
2	1	0	0	0	33.581	0.682075	0.681754	0.0112143	1	-0.00046282	7.64536e-06
2	1	0	0	0	37.3026	0.868153	0.867812	0.0159128	1	-0.000412678	1.38093e-05
2	1	0	0	0	41.0242	1.05423	1.05394	0.0235196	1	-0.000340132	2.47883e-05
2	0	0	0	0	44.6922	1.16238	1.16207	0.0214026	1	-0.000239154	2.48713e-05
2	0	0	1	0	48.4137	0.976295	0.976024	0.0063915	1	-0.000195604	6.23826e-06
2	0	0	1	0	52.1672	0.788619	0.788207	0.00227933	1	-0.000180476	1.79658e-06
2	0	0	1	0	55.8888	0.602541	0.602173	0.000176323	1	-0.000176113	1.06177e-07
2	0	0	1	0	59.6104	0.416463	0.416119	-0.00148828	1	-0.000178623	-6.19302e-07
2	0	0	1	0	63.332	0.230385	0.230027	-0.00325043	1	-0.000187452	-7.47687e-07
2	0	0	1	0	67.0536	0.044307	0.0439197	-0.0049824	1	-0.000202908	-2.18826e-07
2	0	0	0	0	70.775	-0.141771	-0.142161	-0.006937	1	-0.00022497	9.86175e-07
2	0	0	0	0	74.5286	-0.32945	-0.329896	-0.0142003	1	-0.000260692	4.68462e-06
2	0	0	0	0	78.2502	-0.515528	-0.515939	-0.0388113	1	-0.000354446	2.00242e-05
2	0	0	0	0	81.9718	-0.701606	-0.702053	-0.0747824	1	-0.000564298	5.25012e-05
2	0	0	0	0	85.7254	-0.889285	-0.889715	-0.111491	1	-0.000918764	9.9195e-05
2	0	0	0	0	89.447	-1.07536	-1.07576	-0.130775	1	-0.00137358	0.000140683
2	0	0	1	0	93.1685	-1.26144	-1.26185	-0.141519	1	-0.0018809	0.000178575
2	0	0	1	0	96.89	-1.44752	-1.44793	-0.150285	1	-0.00242306	0.000217601
2	0	0	1	0	100.612	-1.6336	-1.63395	-0.170738	1	-0.00301533	0.000278979
2	0	0	1	0	104.333	-1.81968	-1.82004	-0.225343	1	-0.00373868	0.000410134
2	1	0	0	1	108.031	-1.99545	-1.99581	-0.307072	1	-0.00473403	0.000612859
2	1	0	1	1	111.753	-1.80937	-1.80975	-0.207115	1	-0.00565128	0.000374826
2	1	0	1	1	115.474	-1.62329	-1.62369	-0.159788	1	-0.00632993	0.000259446
2	1	0	1	1	119.196	-1.43722	-1.43762	-0.129062	1	-0.00686067	0.000185542
2	1	0	1	1	122.918	-1.25114	-1.25158	-0.113569	1	-0.00730936	0.000142141
2	1	0	1	1	126.639	-1.06506	-1.0655	-0.101055	1	-0.00771048	0.000107674
2	1	0	1	1	130.335	-0.880282	-0.880741	-0.0690745	2	-0.00803305	6.08368e-05
2	1	0	0	1	134.086	-0.692703	-0.69318	-0.0243238	2	-0.00820404	1.68608e-05
2	1	0	0	1	137.84	-0.505024	-0.505448	-0.00456018	2	-0.00825006	2.30493e-06
2	1	0	0	1	141.561	-0.318946	-0.319336	0.00350606	2	-0.0082566	-1.11961e-06
2	1	0	0	1	145.283	-0.132867	-0.13329	0.00806637	2	-0.00823128	-1.07517e-06
2	1	0	0	1	149.005	0.0532107	0.0529058	0.00798228	2	-0.00820131	4.22309e-07
2	1	0	0	1	152.726	0.239289	0.238947	0.00832601	2	-0.00817117	1.98947e-06
2	1	0	1	1	156.448	0.425367	0.425032	0.0091012	2	-0.00813864	3.8683e-06
2	1	0	1	1	160.201	0.613046	0.612702	0.0106609	2	-0.00810195	6.53194e-06
2	1	0	1	1	163.923	0.799124	0.798841	0.0143625	2	-0.00805588	1.14734e-05
2	1	0	1	1	167.644	0.985202	0.984904	0.0205369	2	-0.00799161	2.02269e-05
2	1	0	1	1	171.366	1.17128	1.171	0.030617	2	-0.00789803	3.58526e-05
2	0	0	1	1	175.034	1.04533	1.04505	0.0098105	2	-0.00782627	1.02524e-05
2	0	0	0	1	178.787	0.857648	0.857315	0.00385483	2	-0.00780262	3.30481e-06
2	0	0	0	1	182.509	0.67157	0.671246	0.00123918	2	-0.00779361	8.31792e-07
2	0	0	0	1	186.231	0.485492	0.48508	-0.000605374	2	-0.00779257	-2.93654e-07
2	0	0	0	1	189.952	0.299414	0.299048	-0.00230759	2	-0.00779805	-6.90081e-07
2	0	0	0	1	193.674	0.113336	0.112953	-0.00407859	2	-0.00780995	-4.6069e-07
2	0	0	0	1	197.395	-0.0727422	-0.0731437	-0.00577833	2	-0.00782812	4.22649e-07
2	0	0	1	1	201.117	-0.25882	-0.259256	-0.00915357	2	-0.00785437	2.37311e-06
2	0	0	1	1	204.87	-0.446499	-0.446913	-0.0260272	2	-0.00791534	1.16319e-05
2	0	0	1	1	208.592	-0.632577	-0.632982	-0.0589661	2	-0.00807089	3.73245e-05
2	0	0	1	1	212.314	-0.818656	-0.819056	-0.098395	2	-0.00836362	8.0591e-05
2	0	0	1	1	216.067	-1.00633	-1.00676	-0.124145	2	-0.0087874	0.000124985
2	0	0	1	1	219.789	-1.19241	-1.1928	-0.136874	2	-0.00927481	0.000163264
2	0	0	0	1	223.51	-1.37849	-1.37885	-0.145668	2	-0.00980077	0.000200853
2	0	0	0	1	227.232	-1.56457	-1.56495	-0.159775	2	-0.0103651	0.000250039
2	0	0	0	1	230.953	-1.75065	-1.75106	-0.198347	2	-0.0110186	0.000347317
2	0	0	0	1	234.675	-1.93673	-1.9371	-0.276592	2	-0.0118903	0.000535785
2	1	0	1	0	238.373	-1.8784	-1.87877	-0.228925	2	-0.0128965	0.000430099
2	1	0	0	0	242.095	-1.69232	-1.69277	-0.173265	2	-0.0136357	0.000293297
2	1	0	0	0	245.816	-1.50624	-1.50661	-0.137136	2	-0.0142087	0.000206611
2	1	0	0	0	249.538	-1.32017	-1.3206	-0.118359	2	-0.0146797	0.000156305
2	1	0	0	0	253.259	-1.13409	-1.13454	-0.106805	2	-0.0150973	0.000121174
2	1	0	0	0	256.955	-0.94931	-0.94975	-0.0839696	3	-0.0154567	7.97502e-05
2	1	0	1	0	260.708	-0.761634	-0.762126	-0.0385332	3	-0.0156895	2.93672e-05
2	1	0	1	0	264.43	-0.575553	-0.575958	-0.00903976	3	-0.0157685	5.20652e-06
2	1	0	1	0	268.184	-0.387875	-0.388322	-0.00148895	3	-0.015786	5.78192e-07
2	1	0	1	0	271.905	-0.201796	-0.202208	0.00732942	3	-0.0157711	-1.48207e-06
2	1	0	1	0	275.627	-0.0157182	-0.0161576	0.0077171	3	-0.0157424	-1.2469e-07
2	1	0	1	0	279.348	0.17036	0.170032	0.00782649	3	-0.0157136	1.33075e-06
2	1	0	0	0	283.07	0.356438	0.356051	0.00866198	3	-0.015683	3.08411e-06
[...]
2	0	0	0	0	327.735	-0.189691	-0.190119	-0.00689513	3	-0.0153828	1.3109e-06
2	0	0	0	0	331.489	-0.37737	-0.377801	-0.0170831	3	-0.0154228	6.45401e-06
2	0	0	0	0	335.21	-0.563448	-0.563863	-0.0441297	3	-0.0155314	2.48831e-05
2	0	0	0	0	338.932	-0.749527	-0.749944	-0.0829686	3	-0.0157651	6.22218e-05
2	0	0	0	0	342.685	-0.937205	-0.937601	-0.116019	3	-0.0161454	0.000108779
2	0	0	0	0	346.407	-1.12328	-1.12372	-0.132355	3	-0.0166108	0.00014873
2	0	0	1	0	350.128	-1.30936	-1.30975	-0.141718	3	-0.0171224	0.000185616
2	0	0	1	0	353.85	-1.49544	-1.49584	-0.152419	3	-0.0176684	0.000227993
2	0	0	1	0	357.572	-1.68152	-1.68196	-0.177465	3	-0.0182745	0.000298489
2	0	0	1	0	361.293	-1.8676	-1.868	-0.241704	3	-0.0190411	0.000451503
2	1	0	0	1	364.993	-1.94743	-1.94782	-0.258107	3	-0.0200571	0.000502745
2	1	0	0	1	368.715	-1.76135	-1.76172	-0.189504	3	-0.0208717	0.000333852
2	1	0	1	1	372.436	-1.57527	-1.57569	-0.148071	3	-0.0214955	0.000233314
2	1	0	1	1	376.158	-1.3892	-1.38964	-0.123644	3	-0.0219952	0.000171821
2	1	0	1	1	379.88	-1.20312	-1.20355	-0.110416	3	-0.0224296	0.000132891
2	1	0	1	1	383.601	-1.01704	-1.01751	-0.0953573	3	-0.0228172	9.70267e-05
2	1	0	1	1	387.297	-0.832261	-0.832733	-0.0564635	4	-0.0231051	4.7019e-05
2	1	0	0	1	391.05	-0.644582	-0.64502	-0.0164743	4	-0.0232338	1.06263e-05
2	1	0	0	1	394.804	-0.456904	-0.457324	-0.00379108	4	-0.0232642	1.73375e-06
2	1	0	0	1	398.525	-0.270825	-0.271205	0.00548613	4	-0.0232627	-1.48786e-06
2	1	0	0	1	402.247	-0.0847472	-0.0851329	0.00755323	4	-0.0232363	-6.43028e-07
2	1	0	0	1	405.969	0.101331	0.101008	0.00746691	4	-0.0232085	7.54216e-07
2	1	0	0	1	409.69	0.287409	0.287093	0.00799288	4	-0.0231798	2.2947e-06
2	1	0	1	1	413.412	0.473487	0.473135	0.00894502	4	-0.0231481	4.2322e-06
2	1	0	1	1	417.165	0.661166	0.660838	0.0107483	4	-0.0231118	7.1029e-06
2	1	0	1	1	420.887	0.847244	0.846889	0.0149227	4	-0.0230645	1.26379e-05
2	1	0	1	1	424.608	1.03332	1.03304	0.0217232	4	-0.0229974	2.24409e-05
2	0	0	1	1	428.274	1.18338	1.18311	0.0253248	4	-0.022901	2.99621e-05
2	0	0	1	1	431.996	0.997307	0.997014	0.00740314	4	-0.0228511	7.38103e-06
2	0	0	0	1	435.749	0.809626	0.80924	0.00301021	4	-0.022833	2.43598e-06
2	0	0	0	1	439.471	0.62355	0.623201	0.000787701	4	-0.0228263	4.90896e-07
2	0	0	0	1	443.193	0.437472	0.43715	-0.000998249	4	-0.0228268	-4.36384e-07
2	0	0	0	1	446.914	0.251394	0.25102	-0.00263371	4	-0.0228336	-6.61112e-07
2	0	0	0	1	450.636	0.0653158	0.0649448	-0.00419353	4	-0.0228464	-2.72348e-07
2	0	0	0	1	454.357	-0.120762	-0.121251	-0.00587034	4	-0.0228649	7.11784e-07
2	0	0	1	1	458.111	-0.308441	-0.308909	-0.0109624	4	-0.0228935	3.38637e-06
2	0	0	1	1	461.832	-0.494519	-0.494923	-0.0307613	4	-0.0229662	1.52245e-05
2	0	0	1	1	465.554	-0.680598	-0.681046	-0.0663514	4	-0.0231438	4.51883e-05
2	0	0	1	1	469.308	-0.868276	-0.868714	-0.105928	4	-0.023471	9.20215e-05
2	0	0	1	1	473.029	-1.05435	-1.05477	-0.127272	4	-0.0239096	0.000134243
2	0	0	1	1	476.751	-1.24043	-1.24085	-0.13844	4	-0.0244055	0.000171784
2	0	0	0	1	480.472	-1.42651	-1.42694	-0.147569	4	-0.0249373	0.000210572
2	0	0	0	1	484.194	-1.61259	-1.613	-0.164529	4	-0.0255134	0.000265386
2	0	0	0	1	487.915	-1.79867	-1.79908	-0.212442	4	-0.0262017	0.000382199
2	0	0	0	1	491.637	-1.98475	-1.9851	-0.296095	4	-0.02714	0.000587779
2	1	0	1	0	495.335	-1.83038	-1.83077	-0.208496	4	-0.0280629	0.000381709
2	1	0	0	0	499.057	-1.6443	-1.64474	-0.161854	4	-0.0287454	0.000266208
2	1	0	0	0	502.778	-1.45822	-1.45857	-0.130655	4	-0.029284	0.00019057
2	1	0	0	0	506.5	-1.27215	-1.27259	-0.115077	4	-0.0297378	0.000146446
2	1	0	0	0	510.221	-1.08607	-1.08647	-0.102801	4	-0.0301433	0.000111691
2	1	0	0	0	511.942	-0.999982	-1.00046	-0.0927181	4	-0.0303122	9.27605e-05