Folder: Zochas/RDE_data (part 3)

File: 02262020_MnO2_RDE_50mVs_2500rpm_ExtendedBounds_IncreasedFlow_C04.mpt
EC-Lab ASCII FILE
Nb header lines : 56

Cyclic Voltammetry

Run on channel : 4 (SN 35517)
User : CESL
CE vs. WE compliance from -10 V to 10 V
Electrode connection : standard
Ewe ctrl range : min = -2.50 V, max = 2.50 V
Safety Limits :
	Do not start on E overload
Acquisition started on : 02/26/2020 13:55:39
Technique started on : 02/26/2020 13:55:39
Saved on :
	File : 02262020_MnO2_RDE_50mVs_2500rpm_ExtendedBounds_IncreasedFlow_C04.mpr
	Directory : C:\Users\CESL\Documents\EC-Lab\Data\Undergrad\Katelyn\EChem\
	Host : 169.254.217.189
Device : VSP (SN 1724172417241724)
Address : USB
EC-Lab for windows v11.16 (software)
Internet server v11.16 (firmware)
Command interpretor v11.16 (firmware)
Electrode material : Au/Pd
Initial state :
Electrolyte : NaCl (0.2M)
Comments : Fe(CN)63-/Fe(CN)64- 5.10-3 M
Reference electrode : SCE Saturated Calomel Electrode (0.241 V)
Electrode surface area : 0.001 cm²
Characteristic mass : 0.001 g
Equivalent Weight : 0.000 g/eq.
Density : 0.000 g/cm3
Cycle Definition : Charge/Discharge alternance
Ei (V)              -1.000
vs.                 Ref
dE/dt               50.000
dE/dt unit          mV/s
E1 (V)              1.200
vs.                 Ref
Step percent        50
N                   10
E range min (V)     -2.500
E range max (V)     2.500
I Range             Auto
I Range min         Unset
I Range max         Unset
I Range init        Unset
Bandwidth           5
E2 (V)              -2.000
vs.                 Ref
nc cycles           3
Reverse Scan        1
Ef (V)              -1.000
vs.                 Ref

mode	ox/red	error	control changes	counter inc.	time/s	control/V	Ewe/V	<I>/mA	cycle number	(Q-Qo)/C	P/W
2	1	0	0	0	0.000000000000000E+000	-0.99698	-0.99744	-0.41132	1	0.0000000E+000	0.000410267
2	1	0	1	0	3.6924	-0.812353	-0.812779	-0.0979412	1	-0.00050572	7.96045e-05
2	1	0	1	0	7.394	-0.627275	-0.62775	-0.0526525	1	-0.000774504	3.30526e-05
2	1	0	1	0	11.1256	-0.440697	-0.441139	-0.0160853	1	-0.000907566	7.09586e-06
2	1	0	1	0	14.8592	-0.254018	-0.25442	0.00264449	1	-0.000921826	-6.7281e-07
2	1	0	1	0	18.5608	-0.0689406	-0.0693503	0.0040321	1	-0.000907691	-2.79627e-07
2	1	0	0	0	22.2622	0.116137	0.11581	0.00399731	1	-0.000892852	4.62928e-07
2	1	0	0	0	25.9638	0.301215	0.300858	0.00446526	1	-0.000877255	1.34341e-06
2	1	0	0	0	29.6654	0.486292	0.485955	0.00575484	1	-0.000858721	2.79659e-06
2	1	0	0	0	33.367	0.67137	0.671062	0.00826915	1	-0.000833241	5.54912e-06
2	1	0	0	0	37.1006	0.858049	0.857734	0.0122381	1	-0.00079521	1.0497e-05
2	1	0	1	0	40.802	1.04313	1.04287	0.0194419	1	-0.000738419	2.02754e-05
2	0	0	1	0	44.452	1.17438	1.17409	0.0247321	1	-0.000643432	2.90377e-05
2	0	0	1	0	48.1536	0.989304	0.989041	0.00605696	1	-0.000596678	5.99058e-06
2	0	0	1	0	51.8872	0.802625	0.802317	0.00153192	1	-0.000584039	1.22908e-06
2	0	0	1	0	55.5888	0.617548	0.61722	-0.000634126	1	-0.000582697	-3.91395e-07
2	0	0	0	0	59.2902	0.43247	0.432186	-0.00246817	1	-0.000588612	-1.06671e-06
2	0	0	0	0	62.9918	0.247392	0.247011	-0.00450817	1	-0.000601705	-1.11357e-06
2	0	0	0	0	66.6934	0.0623145	0.0619873	-0.00637254	1	-0.000621977	-3.95017e-07
2	0	0	0	0	70.395	-0.122763	-0.123158	-0.00838346	1	-0.000649192	1.03249e-06
2	0	0	1	0	74.1285	-0.309442	-0.309865	-0.0132139	1	-0.000687065	4.09452e-06
2	0	0	1	0	77.83	-0.494519	-0.494944	-0.042765	1	-0.000779644	2.11663e-05
2	0	0	1	0	81.5316	-0.679597	-0.680066	-0.0813889	1	-0.00101442	5.53498e-05
2	0	0	1	0	85.2632	-0.866176	-0.866643	-0.128121	1	-0.00140433	0.000111036
2	0	0	1	0	88.9648	-1.05125	-1.05168	-0.157075	1	-0.00193862	0.000165192
2	0	0	0	0	92.6662	-1.23633	-1.23673	-0.173765	1	-0.00255257	0.0002149
2	0	0	0	0	96.3678	-1.42141	-1.4218	-0.18756	1	-0.00322127	0.000266673
2	0	0	0	0	100.069	-1.60649	-1.60686	-0.209621	1	-0.00395207	0.000336833
2	0	0	0	0	103.771	-1.79156	-1.79195	-0.257206	1	-0.00480339	0.000460899
2	0	0	0	0	107.473	-1.97664	-1.97698	-0.341031	1	-0.00589503	0.000674213
2	1	0	0	1	111.153	-1.83938	-1.83979	-0.251445	1	-0.00699992	0.000462605
2	1	0	0	1	114.854	-1.65431	-1.6548	-0.192274	1	-0.00781447	0.000318175
2	1	0	0	1	118.556	-1.46923	-1.46964	-0.158714	1	-0.00845611	0.000233253
2	1	0	0	1	122.257	-1.28415	-1.28461	-0.142755	1	-0.00901282	0.000183385
2	1	0	1	1	125.959	-1.09907	-1.09949	-0.124492	1	-0.00951003	0.000136877
2	1	0	1	1	129.634	-0.915296	-0.915759	-0.0842869	2	-0.00990273	7.71865e-05
2	1	0	1	1	133.366	-0.728718	-0.729159	-0.029323	2	-0.0101114	2.13811e-05
2	1	0	1	1	137.1	-0.542039	-0.542443	-0.00108379	2	-0.0101587	5.87894e-07
2	1	0	0	1	140.801	-0.356964	-0.357299	0.00578777	2	-0.010148	-2.06796e-06
2	1	0	0	1	144.535	-0.170283	-0.170698	0.0103968	2	-0.0101158	-1.77471e-06
2	1	0	0	1	148.236	0.0147946	0.0144115	0.0105669	2	-0.0100768	1.52285e-07
2	1	0	0	1	151.938	0.199872	0.199505	0.0110244	2	-0.0100368	2.19942e-06
2	1	0	0	1	155.639	0.38495	0.384562	0.0117649	2	-0.00999435	4.52434e-06
2	1	0	1	1	159.341	0.570028	0.56967	0.0128313	2	-0.00994927	7.30962e-06
2	1	0	1	1	163.042	0.755105	0.754771	0.0164311	2	-0.00989577	1.24017e-05
2	1	0	1	1	166.744	0.940183	0.939912	0.0223618	2	-0.00982497	2.10182e-05
2	1	0	1	1	170.446	1.12526	1.12495	0.0330577	2	-0.00972414	3.71881e-05
2	0	0	1	1	174.094	1.09235	1.09206	0.0149285	2	-0.00961907	1.63028e-05
2	0	0	0	1	177.795	0.907269	0.906956	0.00507661	2	-0.00958614	4.60427e-06
2	0	0	0	1	181.529	0.720591	0.720261	0.00161394	2	-0.00957456	1.16246e-06
2	0	0	0	1	185.23	0.535513	0.535106	-0.000480908	2	-0.00957265	-2.57337e-07
2	0	0	0	1	188.932	0.350435	0.350091	-0.00240982	2	-0.00957809	-8.43655e-07
2	0	0	0	1	192.633	0.165358	0.164989	-0.00442998	2	-0.00959095	-7.30897e-07
2	0	0	1	1	196.335	-0.0197199	-0.0201568	-0.00639535	2	-0.00961101	1.2891e-07
2	0	0	1	1	200.036	-0.204798	-0.205224	-0.00917975	2	-0.00963945	1.8839e-06
2	0	0	1	1	203.77	-0.391476	-0.391874	-0.0245637	2	-0.00969444	9.62587e-06
2	0	0	1	1	207.472	-0.576554	-0.577018	-0.0616376	2	-0.00985202	3.5566e-05
2	0	0	1	1	211.205	-0.763232	-0.76367	-0.104983	2	-0.0101588	8.01721e-05
2	0	0	0	1	214.907	-0.94831	-0.948761	-0.143839	2	-0.0106262	0.000136469
2	0	0	0	1	218.608	-1.13339	-1.1338	-0.162457	2	-0.0111969	0.000184193
2	0	0	0	1	222.31	-1.31847	-1.31888	-0.174124	2	-0.0118209	0.000229649
2	0	0	0	1	226.011	-1.50354	-1.50394	-0.186489	2	-0.012486	0.000280469
2	0	0	1	1	229.713	-1.68862	-1.68901	-0.214885	2	-0.0132207	0.000362942
2	0	0	1	1	233.414	-1.8737	-1.87409	-0.280842	2	-0.0141246	0.000526322
2	1	0	0	0	237.093	-1.94243	-1.94285	-0.297957	2	-0.0152864	0.000578885
2	1	0	0	0	240.794	-1.75735	-1.75774	-0.22313	2	-0.0162367	0.000392206
2	1	0	1	0	244.496	-1.57227	-1.57266	-0.175972	2	-0.01697	0.000276745
2	1	0	1	0	248.197	-1.38719	-1.38759	-0.151225	2	-0.0175685	0.000209837
2	1	0	1	0	251.899	-1.20212	-1.20255	-0.136633	2	-0.0181011	0.000164308
2	1	0	1	0	255.6	-1.01704	-1.01749	-0.113519	2	-0.0185706	0.000115504
2	1	0	0	0	259.276	-0.833262	-0.833794	-0.06456	3	-0.018904	5.38298e-05
2	1	0	0	0	263.009	-0.646583	-0.647031	-0.0182469	3	-0.0190499	1.18063e-05
2	1	0	0	0	266.743	-0.459905	-0.46033	-0.00271162	3	-0.0190796	1.24824e-06
2	1	0	0	0	270.445	-0.274827	-0.275224	0.00659883	3	-0.0190754	-1.81616e-06
2	1	0	0	0	274.146	-0.0897493	-0.0901759	0.00936146	3	-0.0190435	-8.44178e-07
2	1	0	1	0	277.848	0.0953273	0.0949654	0.00965479	3	-0.0190081	9.1687e-07
2	1	0	1	0	281.549	0.280406	0.280053	0.0100514	3	-0.0189716	2.81492e-06
[...]
2	0	0	1	0	329.71	-0.288433	-0.288873	-0.0122686	3	-0.0186266	3.54407e-06
2	0	0	0	0	333.411	-0.473511	-0.473959	-0.036976	3	-0.0187107	1.75251e-05
2	0	0	0	0	337.113	-0.658588	-0.659009	-0.0751461	3	-0.0189178	4.95219e-05
2	0	0	0	0	340.847	-0.845267	-0.845664	-0.122105	3	-0.0192864	0.00010326
2	0	0	0	0	344.548	-1.03034	-1.03081	-0.151714	3	-0.0197996	0.000156389
2	0	0	0	0	348.25	-1.21542	-1.21585	-0.166161	3	-0.0203911	0.000202027
2	0	0	1	0	351.951	-1.4005	-1.40091	-0.177234	3	-0.0210276	0.000248289
2	0	0	1	0	355.653	-1.58558	-1.58594	-0.193779	3	-0.0217103	0.000307323
2	0	0	1	0	359.354	-1.77066	-1.7711	-0.23519	3	-0.0224921	0.000416543
2	0	0	1	0	363.056	-1.95573	-1.95609	-0.320219	3	-0.0235078	0.000626376
2	1	0	1	1	366.734	-1.86039	-1.86081	-0.255908	3	-0.0246175	0.000476195
2	1	0	1	1	370.436	-1.67532	-1.67577	-0.198823	3	-0.0254543	0.000333181
2	1	0	1	1	374.137	-1.49024	-1.49067	-0.161486	3	-0.0261149	0.000240722
2	1	0	1	1	377.839	-1.30516	-1.30561	-0.143889	3	-0.0266773	0.000187864
2	1	0	0	1	381.54	-1.12008	-1.12049	-0.129015	3	-0.0271841	0.00014456
2	1	0	0	1	385.216	-0.936305	-0.936763	-0.0947208	4	-0.0276042	8.8731e-05
2	1	0	0	1	388.949	-0.749627	-0.750076	-0.040306	4	-0.0278555	3.02326e-05
2	1	0	0	1	392.651	-0.564549	-0.56496	-0.00888525	4	-0.0279362	5.01981e-06
2	1	0	0	1	396.385	-0.37787	-0.378237	-0.000961111	4	-0.027953	3.63528e-07
2	1	0	1	1	400.086	-0.192793	-0.193179	0.00845129	4	-0.0279346	-1.63261e-06
2	1	0	1	1	403.788	-0.00771488	-0.00808595	0.00901184	4	-0.0279017	-7.28692e-08
2	1	0	1	1	407.489	0.177363	0.177021	0.00898674	4	-0.0278683	1.59085e-06
2	1	0	1	1	411.191	0.36244	0.362085	0.00959239	4	-0.027834	3.47326e-06
2	1	0	1	1	414.924	0.549119	0.548792	0.0107174	4	-0.0277964	5.88164e-06
2	1	0	0	1	418.626	0.734196	0.733876	0.0139817	4	-0.0277514	1.02609e-05
2	1	0	0	1	422.327	0.919274	0.918968	0.0194025	4	-0.0276901	1.78303e-05
2	1	0	0	1	426.029	1.10435	1.1041	0.0282353	4	-0.0276031	3.11744e-05
2	0	0	0	1	429.675	1.11336	1.11305	0.0156652	4	-0.0275035	1.74362e-05
2	0	0	1	1	433.376	0.928279	0.927924	0.00565467	4	-0.0274684	5.2471e-06
2	0	0	1	1	437.11	0.7416	0.741229	0.00207552	4	-0.027455	1.53844e-06
2	0	0	1	1	440.812	0.556522	0.556165	1.81765e-05	4	-0.0274513	1.01091e-08
2	0	0	1	1	444.513	0.371444	0.37106	-0.0017429	4	-0.0274547	-6.46719e-07
2	0	0	1	1	448.215	0.186367	0.185985	-0.003611	4	-0.0274647	-6.71593e-07
2	0	0	0	1	451.916	0.00128891	0.000918122	-0.00542151	4	-0.0274816	-4.97761e-09
2	0	0	0	1	455.618	-0.183789	-0.184225	-0.00783519	4	-0.0275058	1.44344e-06
2	0	0	0	1	459.351	-0.370467	-0.370938	-0.0193773	4	-0.0275505	7.18778e-06
2	0	0	0	1	463.053	-0.555545	-0.55596	-0.0508701	4	-0.0276751	2.82818e-05
2	0	0	0	1	466.755	-0.740623	-0.741062	-0.093443	4	-0.0279383	6.9247e-05
2	0	0	1	1	470.486	-0.927201	-0.927631	-0.136076	4	-0.028373	0.000126228
2	0	0	1	1	474.188	-1.11228	-1.11269	-0.158183	4	-0.0289223	0.000176008
2	0	0	1	1	477.889	-1.29736	-1.29773	-0.170459	4	-0.029532	0.00022121
2	0	0	1	1	481.591	-1.48243	-1.48282	-0.181634	4	-0.0301822	0.000269331
2	0	0	1	1	485.292	-1.66751	-1.66791	-0.205259	4	-0.030891	0.000342354
2	0	0	0	1	488.994	-1.85259	-1.85294	-0.265397	4	-0.031748	0.000491764
2	1	0	1	0	492.674	-1.96344	-1.96382	-0.30518	4	-0.0328729	0.000599319
2	1	0	1	0	496.376	-1.77836	-1.77873	-0.22631	4	-0.0338344	0.000402545
2	1	0	1	0	500.077	-1.59328	-1.59368	-0.179055	4	-0.0345804	0.000285356
2	1	0	0	0	503.779	-1.4082	-1.40855	-0.151948	4	-0.0351864	0.000214026
2	1	0	0	0	507.48	-1.22313	-1.22357	-0.137472	4	-0.0357219	0.000168207
2	1	0	0	0	511.182	-1.03805	-1.03849	-0.117241	4	-0.0361997	0.000121754
2	1	0	0	0	511.942	-0.999982	-1.00044	-0.109957	4	-0.0362861	0.000110005